File: Frangible_8_2019-02-13_14-30-48.csv
Time (s),Load (lbf),Machine Extension (in),Extension (in)
0.0000,,,
0.04079,0.011991,,
0.08157,0.012372,0.00011806,0.00011806
0.1224,0.013235,0.00069540,0.00069540
0.1631,0.010006,0.0013340,0.0013340
0.2039,0.011801,0.0021467,0.0021467
0.2447,0.012409,0.0026842,0.0026842
0.2855,0.012768,0.0034508,0.0034508
0.3263,0.012961,0.0040670,0.0040670
0.3671,0.013153,0.0045466,0.0045466
0.4079,0.013384,0.0055415,0.0055415
0.4487,0.013642,0.0060627,0.0060627
0.4894,0.013899,0.0067253,0.0067253
0.5302,0.014157,0.0075550,0.0075550
0.5710,0.014414,0.0081177,0.0081177
0.6118,0.014671,0.0086851,0.0086851
0.6526,0.014929,0.0095780,0.0095780
0.6934,0.015186,0.010112,0.010112
0.7342,0.015444,0.010871,0.010871
0.7749,0.015701,0.011613,0.011613
0.8157,0.015958,0.012189,0.012189
0.8565,0.016216,0.013075,0.013075
0.8973,0.016473,0.013557,0.013557
0.9381,0.016731,0.014146,0.014146
0.9789,0.016840,0.015181,0.015181
1.020,0.016928,0.015631,0.015631
1.060,0.017016,0.016219,0.016219
1.101,0.017104,0.017122,0.017122
1.142,0.017191,0.017562,0.017562
1.183,0.017279,0.018418,0.018418
1.224,0.017367,0.018985,0.018985
1.264,0.017454,0.019594,0.019594
1.305,0.017542,0.020411,0.020411
1.346,0.017630,0.021107,0.021107
1.387,0.017718,0.021632,0.021632
1.428,0.017805,0.022532,0.022532
1.468,0.017893,0.023230,0.023230
1.509,0.017981,0.023841,0.023841
1.550,0.018069,0.024461,0.024461
1.591,0.018156,0.025086,0.025086
1.631,0.018244,0.025712,0.025712
1.672,0.018332,0.026372,0.026372
1.713,0.018419,0.027052,0.027052
1.754,0.018507,0.027731,0.027731
1.795,0.018595,0.028411,0.028411
1.835,0.018683,0.029090,0.029090
1.876,0.018770,0.029770,0.029770
1.917,0.018858,0.030450,0.030450
1.958,0.018946,0.031129,0.031129
1.999,0.019034,0.031809,0.031809
2.039,0.019121,0.032489,0.032489
2.080,0.019209,0.033168,0.033168
2.121,0.019297,0.033848,0.033848
2.162,0.019384,0.034528,0.034528
2.202,0.019472,0.035207,0.035207
2.243,0.019560,0.035887,0.035887
2.284,0.019648,0.036566,0.036566
2.325,0.019735,0.037246,0.037246
2.366,0.019823,0.037926,0.037926
2.406,0.019911,0.038605,0.038605
2.447,0.019999,0.039285,0.039285
2.488,0.020086,0.039965,0.039965
2.529,0.020174,0.040644,0.040644
2.570,0.020262,0.041324,0.041324
2.610,0.020349,0.042003,0.042003
2.651,0.020437,0.042683,0.042683
2.692,0.020525,0.043363,0.043363
2.733,0.020613,0.044042,0.044042
2.773,0.020700,0.044722,0.044722
2.814,0.020788,0.045402,0.045402
2.855,0.020876,0.046081,0.046081
2.896,0.020964,0.046761,0.046761
2.937,0.021051,0.047441,0.047441
2.977,0.021139,0.048120,0.048120
3.018,0.021227,0.048800,0.048800
3.059,0.021314,0.049479,0.049479
3.100,0.021402,0.050159,0.050159
3.141,0.021490,0.050839,0.050839
3.181,0.021578,0.051518,0.051518
3.222,0.021665,0.052198,0.052198
3.263,0.021753,0.052878,0.052878
3.304,0.021841,0.053557,0.053557
3.345,0.021929,0.054237,0.054237
3.385,0.022016,0.054916,0.054916
3.426,0.022104,0.055596,0.055596
3.467,0.022192,0.056276,0.056276
3.508,0.022279,0.056955,0.056955
3.548,0.022367,0.057635,0.057635
3.589,0.022455,0.058315,0.058315
3.630,0.022543,0.058994,0.058994
3.671,0.022630,0.059674,0.059674
3.712,0.022718,0.060353,0.060353
3.752,0.022806,0.061033,0.061033
3.793,0.022894,0.061713,0.061713
3.834,0.022981,0.062392,0.062392
3.875,0.023069,0.063072,0.063072
3.916,0.023157,0.063752,0.063752
3.956,0.023244,0.064431,0.064431
3.997,0.023332,0.065111,0.065111
4.038,0.023420,0.065791,0.065791
4.079,0.023508,0.066470,0.066470
4.119,0.023595,0.067150,0.067150
4.160,0.023683,0.067829,0.067829
4.201,0.023771,0.068509,0.068509
4.242,0.023859,0.069189,0.069189
4.283,0.023946,0.069868,0.069868
4.323,0.024034,0.070548,0.070548
4.364,0.024122,0.071228,0.071228
4.405,0.024209,0.071907,0.071907
4.446,0.024297,0.072587,0.072587
4.487,0.024385,0.073266,0.073266
4.527,0.024473,0.073946,0.073946
4.568,0.024560,0.074626,0.074626
4.609,0.024648,0.075305,0.075305
4.650,0.024736,0.075985,0.075985
4.690,0.024824,0.076665,0.076665
4.731,0.024911,0.077344,0.077344
4.772,0.024999,0.078024,0.078024
4.813,0.025087,0.078704,0.078704
4.854,0.025174,0.079383,0.079383
4.894,0.025262,0.080063,0.080063
4.935,0.025350,0.080742,0.080742
4.976,0.025438,0.081422,0.081422
5.017,0.025525,0.082102,0.082102
5.058,0.025613,0.082781,0.082781
5.098,0.025701,0.083461,0.083461
5.139,0.025789,0.084141,0.084141
5.180,0.025876,0.084820,0.084820
5.221,0.025964,0.085500,0.085500
5.261,0.026052,0.086179,0.086179
5.302,0.026139,0.086859,0.086859
5.343,0.026227,0.087539,0.087539
5.384,0.026315,0.088218,0.088218
5.425,0.026403,0.088898,0.088898
5.465,0.026490,0.089578,0.089578
5.506,0.026578,0.090257,0.090257
5.547,0.026666,0.090937,0.090937
5.588,0.026754,0.091617,0.091617
5.629,0.026841,0.092296,0.092296
5.669,0.026929,0.092976,0.092976
5.710,0.027017,0.093655,0.093655
5.751,0.027104,0.094335,0.094335
5.792,0.027192,0.095015,0.095015
5.833,0.027280,0.095694,0.095694
5.873,0.027368,0.096374,0.096374
5.914,0.027455,0.097054,0.097054
5.955,0.027543,0.097733,0.097733
5.996,0.027631,0.098413,0.098413
6.036,0.027719,0.099092,0.099092
6.077,0.027806,0.099772,0.099772
6.118,0.027894,0.10045,0.10045
6.159,0.027982,0.10113,0.10113
6.200,0.028069,0.10181,0.10181
6.240,0.028157,0.10249,0.10249
6.281,0.028245,0.10317,0.10317
6.322,0.028333,0.10385,0.10385
6.363,0.028420,0.10453,0.10453
6.404,0.028508,0.10521,0.10521
6.444,0.028596,0.10589,0.10589
6.485,0.028684,0.10657,0.10657
6.526,0.028771,0.10725,0.10725
6.567,0.028859,0.10793,0.10793
6.607,0.028947,0.10861,0.10861
6.648,0.029034,0.10929,0.10929
6.689,0.029122,0.10997,0.10997
6.730,0.029210,0.11065,0.11065
6.771,0.029298,0.11133,0.11133
6.811,0.029385,0.11201,0.11201
6.852,0.029473,0.11269,0.11269
6.893,0.029561,0.11336,0.11336
6.934,0.029649,0.11404,0.11404
6.975,0.029736,0.11472,0.11472
7.015,0.029824,0.11540,0.11540
7.056,0.029912,0.11608,0.11608
7.097,0.029999,0.11676,0.11676
7.138,0.030087,0.11744,0.11744
7.178,0.030175,0.11812,0.11812
7.219,0.030263,0.11880,0.11880
7.260,0.030350,0.11948,0.11948
7.301,0.030438,0.12016,0.12016
7.342,0.030526,0.12084,0.12084
7.382,0.030614,0.12152,0.12152
7.423,0.030701,0.12220,0.12220
7.464,0.030820,0.12288,0.12288
7.505,0.030963,0.12356,0.12356
7.546,0.031105,0.12424,0.12424
7.586,0.031248,0.12492,0.12492
7.627,0.031391,0.12560,0.12560
7.668,0.031534,0.12628,0.12628
7.709,0.031677,0.12696,0.12696
7.749,0.031820,0.12764,0.12764
7.790,0.031963,0.12832,0.12832
7.831,0.032106,0.12900,0.12900
7.872,0.032249,0.12968,0.12968
7.913,0.032392,0.13036,0.13036
7.953,0.032535,0.13104,0.13104
7.994,0.032678,0.13171,0.13171
8.035,0.032821,0.13239,0.13239
8.076,0.032964,0.13307,0.13307
8.117,0.033107,0.13375,0.13375
8.157,0.033250,0.13443,0.13443
8.198,0.033393,0.13511,0.13511
8.239,0.033536,0.13579,0.13579
8.280,0.033679,0.13647,0.13647
8.320,0.033822,0.13715,0.13715
8.361,0.033965,0.13783,0.13783
8.402,0.034108,0.13851,0.13851
8.443,0.034251,0.13919,0.13919
8.484,0.034394,0.13987,0.13987
8.524,0.034537,0.14055,0.14055
8.565,0.034680,0.14123,0.14123
8.606,0.034823,0.14191,0.14191
8.647,0.034966,0.14259,0.14259
8.688,0.035109,0.14327,0.14327
8.728,0.035252,0.14395,0.14395
8.769,0.035395,0.14463,0.14463
8.810,0.035538,0.14531,0.14531
8.851,0.035681,0.14599,0.14599
8.892,0.035824,0.14667,0.14667
8.932,0.035967,0.14735,0.14735
8.973,0.036110,0.14803,0.14803
9.014,0.036253,0.14871,0.14871
9.055,0.036396,0.14939,0.14939
9.095,0.036539,0.15006,0.15006
9.136,0.036682,0.15074,0.15074
9.177,0.036825,0.15142,0.15142
9.218,0.036967,0.15210,0.15210
9.259,0.037110,0.15278,0.15278
9.299,0.037253,0.15346,0.15346
9.340,0.037396,0.15414,0.15414
9.381,0.037539,0.15482,0.15482
9.422,0.037682,0.15550,0.15550
9.463,0.037825,0.15618,0.15618
9.503,0.037968,0.15686,0.15686
9.544,0.038111,0.15754,0.15754
9.585,0.038254,0.15822,0.15822
9.626,0.038397,0.15890,0.15890
9.666,0.038540,0.15958,0.15958
9.707,0.038683,0.16026,0.16026
9.748,0.038826,0.16094,0.16094
9.789,0.038969,0.16162,0.16162
9.830,0.039112,0.16230,0.16230
9.870,0.039255,0.16298,0.16298
9.911,0.039398,0.16366,0.16366
9.952,0.039541,0.16434,0.16434
9.993,0.039684,0.16502,0.16502
10.03,0.039827,0.16570,0.16570
10.07,0.039970,0.16638,0.16638
10.12,0.040113,0.16706,0.16706
10.16,0.040256,0.16774,0.16774
10.20,0.040399,0.16841,0.16841
10.24,0.040542,0.16909,0.16909
10.28,0.040685,0.16977,0.16977
10.32,0.040828,0.17045,0.17045
10.36,0.040971,0.17113,0.17113
10.40,0.041114,0.17181,0.17181
10.44,0.041257,0.17249,0.17249
10.48,0.041400,0.17317,0.17317
10.52,0.041543,0.17385,0.17385
10.56,0.041686,0.17453,0.17453
10.60,0.041829,0.17521,0.17521
10.65,0.041972,0.17589,0.17589
10.69,0.042115,0.17657,0.17657
10.73,0.042258,0.17725,0.17725
10.77,0.042401,0.17793,0.17793
10.81,0.042544,0.17861,0.17861
10.85,0.042687,0.17929,0.17929
10.89,0.042830,0.17997,0.17997
10.93,0.042972,0.18065,0.18065
10.97,0.043115,0.18133,0.18133
11.01,0.043258,0.18201,0.18201
11.05,0.043401,0.18269,0.18269
11.09,0.043544,0.18337,0.18337
11.13,0.043687,0.18405,0.18405
11.18,0.043830,0.18473,0.18473
11.22,0.043973,0.18541,0.18541
11.26,0.044116,0.18609,0.18609
11.30,0.044259,0.18677,0.18677
11.34,0.044402,0.18745,0.18745
11.38,0.044545,0.18813,0.18813
11.42,0.044688,0.18881,0.18881
11.46,0.044831,0.18949,0.18949
11.50,0.044974,0.19017,0.19017
11.54,0.045117,0.19085,0.19085
11.58,0.045260,0.19153,0.19153
11.62,0.045403,0.19221,0.19221
11.67,0.045546,0.19289,0.19289
11.71,0.045689,0.19357,0.19357
11.75,0.045832,0.19425,0.19425
11.79,0.045975,0.19493,0.19493
11.83,0.046118,0.19561,0.19561
11.87,0.046261,0.19629,0.19629
11.91,0.046404,0.19697,0.19697
11.95,0.046547,0.19765,0.19765
11.99,0.046690,0.19833,0.19833
12.03,0.046833,0.19901,0.19901
12.07,0.046976,0.19969,0.19969
12.11,0.047119,0.20037,0.20037
12.15,0.047262,0.20105,0.20105
12.20,0.047405,0.20173,0.20173
12.24,0.047548,0.20241,0.20241
12.28,0.047691,0.20309,0.20309
12.32,0.047834,0.20377,0.20377
12.36,0.047977,0.20445,0.20445
12.40,0.048120,0.20513,0.20513
12.44,0.048263,0.20581,0.20581
12.48,0.048406,0.20649,0.20649
12.52,0.048549,0.20716,0.20716
12.56,0.048692,0.20784,0.20784
12.60,0.048834,0.20852,0.20852
12.64,0.048977,0.20920,0.20920
12.68,0.049120,0.20988,0.20988
12.73,0.049263,0.21056,0.21056
12.77,0.049401,0.21124,0.21124
12.81,0.049537,0.21192,0.21192
12.85,0.049673,0.21260,0.21260
12.89,0.049809,0.21328,0.21328
12.93,0.049945,0.21396,0.21396
12.97,0.050081,0.21464,0.21464
13.01,0.050217,0.21532,0.21532
13.05,0.050353,0.21600,0.21600
13.09,0.050489,0.21668,0.21668
13.13,0.050625,0.21736,0.21736
13.17,0.050761,0.21804,0.21804
13.21,0.050897,0.21872,0.21872
13.26,0.051033,0.21940,0.21940
13.30,0.051169,0.22008,0.22008
13.34,0.051305,0.22076,0.22076
13.38,0.051441,0.22144,0.22144
13.42,0.051577,0.22212,0.22212
13.46,0.051713,0.22280,0.22280
13.50,0.051849,0.22348,0.22348
13.54,0.051985,0.22416,0.22416
13.58,0.052121,0.22484,0.22484
13.62,0.052257,0.22552,0.22552
13.66,0.052393,0.22620,0.22620
13.70,0.052529,0.22688,0.22688
13.75,0.054015,0.22756,0.22756
13.79,0.052600,0.22824,0.22824
13.83,0.052872,0.22892,0.22892
13.87,0.053143,0.22960,0.22960
13.91,0.053415,0.23028,0.23028
13.95,0.053686,0.23096,0.23096
13.99,0.053957,0.23164,0.23164
14.03,0.054229,0.23232,0.23232
14.07,0.054500,0.23300,0.23300
14.11,0.054771,0.23368,0.23368
14.15,0.055043,0.23436,0.23436
14.19,0.055314,0.23504,0.23504
14.23,0.055586,0.23572,0.23572
14.28,0.055857,0.23640,0.23640
14.32,0.056128,0.23708,0.23708
14.36,0.056400,0.23776,0.23776
14.40,0.056671,0.23844,0.23844
14.44,0.056942,0.23912,0.23912
14.48,0.057214,0.23980,0.23980
14.52,0.057485,0.24048,0.24048
14.56,0.057756,0.24116,0.24116
14.60,0.058028,0.24184,0.24184
14.64,0.058299,0.24252,0.24252
14.68,0.058571,0.24320,0.24320
14.72,0.058842,0.24388,0.24388
14.76,0.059113,0.24456,0.24456
14.81,0.059385,0.24524,0.24524
14.85,0.059656,0.24592,0.24592
14.89,0.059927,0.24660,0.24660
14.93,0.060199,0.24728,0.24728
14.97,0.060470,0.24796,0.24796
15.01,0.060741,0.24864,0.24864
15.05,0.061013,0.24932,0.24932
15.09,0.061284,0.25000,0.25000
15.13,0.061556,0.25068,0.25068
15.17,0.061827,0.25136,0.25136
15.21,0.062098,0.25204,0.25204
15.25,0.062370,0.25272,0.25272
15.30,0.062641,0.25340,0.25340
15.34,0.062912,0.25407,0.25407
15.38,0.063184,0.25475,0.25475
15.42,0.063455,0.25543,0.25543
15.46,0.063727,0.25611,0.25611
15.50,0.063998,0.25679,0.25679
15.54,0.064269,0.25747,0.25747
15.58,0.064541,0.25815,0.25815
15.62,0.064812,0.25883,0.25883
15.66,0.065083,0.25951,0.25951
15.70,0.065355,0.26019,0.26019
15.74,0.065626,0.26087,0.26087
15.78,0.065897,0.26155,0.26155
15.83,0.066169,0.26223,0.26223
15.87,0.066440,0.26291,0.26291
15.91,0.066712,0.26359,0.26359
15.95,0.066983,0.26427,0.26427
15.99,0.067254,0.26495,0.26495
16.03,0.067526,0.26563,0.26563
16.07,0.067797,0.26631,0.26631
16.11,0.068068,0.26699,0.26699
16.15,0.068340,0.26767,0.26767
16.19,0.068611,0.26835,0.26835
16.23,0.068883,0.26903,0.26903
16.27,0.069154,0.26971,0.26971
16.31,0.069425,0.27039,0.27039
16.36,0.069697,0.27107,0.27107
16.40,0.069968,0.27175,0.27175
16.44,0.070239,0.27243,0.27243
16.48,0.070511,0.27311,0.27311
16.52,0.070782,0.27379,0.27379
16.56,0.071053,0.27447,0.27447
16.60,0.071325,0.27515,0.27515
16.64,0.071596,0.27583,0.27583
16.68,0.071868,0.27651,0.27651
16.72,0.072139,0.27719,0.27719
16.76,0.072410,0.27787,0.27787
16.80,0.072682,0.27855,0.27855
16.84,0.072953,0.27923,0.27923
16.89,0.073224,0.27991,0.27991
16.93,0.073496,0.28059,0.28059
16.97,0.073767,0.28127,0.28127
17.01,0.074039,0.28195,0.28195
17.05,0.074310,0.28263,0.28263
17.09,0.074581,0.28331,0.28331
17.13,0.074853,0.28399,0.28399
17.17,0.075124,0.28467,0.28467
17.21,0.075395,0.28535,0.28535
17.25,0.075730,0.28603,0.28603
17.29,0.076103,0.28671,0.28671
17.33,0.076476,0.28739,0.28739
17.38,0.076849,0.28807,0.28807
17.42,0.077222,0.28875,0.28875
17.46,0.077595,0.28943,0.28943
17.50,0.077968,0.29011,0.29011
17.54,0.078341,0.29079,0.29079
17.58,0.078714,0.29147,0.29147
17.62,0.079087,0.29215,0.29215
17.66,0.079460,0.29283,0.29283
17.70,0.079833,0.29351,0.29351
17.74,0.080206,0.29419,0.29419
17.78,0.080579,0.29487,0.29487
17.82,0.080952,0.29555,0.29555
17.86,0.081325,0.29623,0.29623
17.91,0.081698,0.29691,0.29691
17.95,0.082071,0.29759,0.29759
17.99,0.082444,0.29827,0.29827
18.03,0.082817,0.29895,0.29895
18.07,0.083190,0.29963,0.29963
18.11,0.083563,0.30031,0.30031
18.15,0.083936,0.30099,0.30099
18.19,0.084309,0.30166,0.30166
18.23,0.084682,0.30234,0.30234
18.27,0.085055,0.30302,0.30302
18.31,0.085428,0.30370,0.30370
18.35,0.085801,0.30438,0.30438
18.39,0.086174,0.30506,0.30506
18.44,0.086547,0.30574,0.30574
18.48,0.086920,0.30642,0.30642
18.52,0.087293,0.30710,0.30710
18.56,0.087666,0.30778,0.30778
18.60,0.088039,0.30846,0.30846
18.64,0.088412,0.30914,0.30914
18.68,0.088785,0.30982,0.30982
18.72,0.089158,0.31050,0.31050
18.76,0.089531,0.31118,0.31118
18.80,0.089904,0.31186,0.31186
18.84,0.090277,0.31254,0.31254
18.88,0.090650,0.31322,0.31322
18.93,0.091023,0.31390,0.31390
18.97,0.091396,0.31458,0.31458
19.01,0.091769,0.31526,0.31526
19.05,0.092142,0.31594,0.31594
19.09,0.092515,0.31662,0.31662
19.13,0.092888,0.31730,0.31730
19.17,0.092794,0.31798,0.31798
19.21,0.092665,0.31866,0.31866
19.25,0.092536,0.31934,0.31934
19.29,0.092407,0.32002,0.32002
19.33,0.092277,0.32070,0.32070
19.37,0.092306,0.32138,0.32138
19.41,0.092934,0.32206,0.32206
19.46,0.093563,0.32274,0.32274
19.50,0.094192,0.32342,0.32342
19.54,0.094821,0.32410,0.32410
19.58,0.095449,0.32478,0.32478
19.62,0.096078,0.32546,0.32546
19.66,0.096707,0.32614,0.32614
19.70,0.097336,0.32682,0.32682
19.74,0.097964,0.32750,0.32750
19.78,0.098593,0.32818,0.32818
19.82,0.099222,0.32886,0.32886
19.86,0.099851,0.32954,0.32954
19.90,0.10048,0.33022,0.33022
19.94,0.10111,0.33090,0.33090
19.99,0.10174,0.33158,0.33158
20.03,0.10237,0.33226,0.33226
20.07,0.10299,0.33294,0.33294
20.11,0.10362,0.33362,0.33362
20.15,0.10425,0.33430,0.33430
20.19,0.10488,0.33498,0.33498
20.23,0.10551,0.33566,0.33566
20.27,0.10614,0.33634,0.33634
20.31,0.10677,0.33702,0.33702
20.35,0.10740,0.33770,0.33770
20.39,0.10802,0.33838,0.33838
20.43,0.10865,0.33906,0.33906
20.47,0.10928,0.33974,0.33974
20.52,0.10991,0.34042,0.34042
20.56,0.11054,0.34110,0.34110
20.60,0.11117,0.34178,0.34178
20.64,0.11180,0.34246,0.34246
20.68,0.11243,0.34314,0.34314
20.72,0.11305,0.34382,0.34382
20.76,0.11368,0.34450,0.34450
20.80,0.11431,0.34518,0.34518
20.84,0.11494,0.34586,0.34586
20.88,0.11557,0.34654,0.34654
20.92,0.11620,0.34722,0.34722
20.96,0.11683,0.34790,0.34790
21.01,0.11746,0.34858,0.34858
21.05,0.11808,0.34925,0.34925
21.09,0.11871,0.34993,0.34993
21.13,0.11934,0.35061,0.35061
21.17,0.11997,0.35129,0.35129
21.21,0.12060,0.35197,0.35197
21.25,0.12123,0.35265,0.35265
21.29,0.12186,0.35333,0.35333
21.33,0.12249,0.35401,0.35401
21.37,0.12311,0.35469,0.35469
21.41,0.12374,0.35537,0.35537
21.45,0.12437,0.35605,0.35605
21.49,0.12500,0.35673,0.35673
21.54,0.12563,0.35741,0.35741
21.58,0.12626,0.35809,0.35809
21.62,0.12689,0.35877,0.35877
21.66,0.12752,0.35945,0.35945
21.70,0.12814,0.36013,0.36013
21.74,0.12877,0.36081,0.36081
21.78,0.12940,0.36149,0.36149
21.82,0.13003,0.36217,0.36217
21.86,0.13066,0.36285,0.36285
21.90,0.13129,0.36353,0.36353
21.94,0.13192,0.36421,0.36421
21.98,0.13255,0.36489,0.36489
22.02,0.13317,0.36557,0.36557
22.07,0.13380,0.36625,0.36625
22.11,0.13443,0.36693,0.36693
22.15,0.13506,0.36761,0.36761
22.19,0.13569,0.36829,0.36829
22.23,0.13632,0.36897,0.36897
22.27,0.13695,0.36965,0.36965
22.31,0.14406,0.37033,0.37033
22.35,0.14493,0.37101,0.37101
22.39,0.14579,0.37169,0.37169
22.43,0.14666,0.37237,0.37237
22.47,0.14752,0.37305,0.37305
22.51,0.14839,0.37373,0.37373
22.56,0.14925,0.37441,0.37441
22.60,0.15012,0.37509,0.37509
22.64,0.15099,0.37577,0.37577
22.68,0.15185,0.37645,0.37645
22.72,0.15272,0.37713,0.37713
22.76,0.15358,0.37781,0.37781
22.80,0.15445,0.37849,0.37849
22.84,0.15531,0.37917,0.37917
22.88,0.15618,0.37985,0.37985
22.92,0.15704,0.38053,0.38053
22.96,0.15791,0.38121,0.38121
23.00,0.15878,0.38189,0.38189
23.04,0.15964,0.38257,0.38257
23.09,0.16051,0.38325,0.38325
23.13,0.16137,0.38393,0.38393
23.17,0.16224,0.38461,0.38461
23.21,0.16310,0.38529,0.38529
23.25,0.16397,0.38597,0.38597
23.29,0.16483,0.38665,0.38665
23.33,0.16570,0.38733,0.38733
23.37,0.16657,0.38801,0.38801
23.41,0.16743,0.38869,0.38869
23.45,0.16830,0.38937,0.38937
23.49,0.16916,0.39005,0.39005
23.53,0.17003,0.39073,0.39073
23.57,0.17089,0.39141,0.39141
23.62,0.17176,0.39209,0.39209
23.66,0.17262,0.39277,0.39277
23.70,0.17349,0.39345,0.39345
23.74,0.17436,0.39413,0.39413
23.78,0.17522,0.39481,0.39481
23.82,0.17609,0.39549,0.39549
23.86,0.17695,0.39616,0.39616
23.90,0.17782,0.39684,0.39684
23.94,0.17868,0.39752,0.39752
23.98,0.17955,0.39820,0.39820
24.02,0.18041,0.39888,0.39888
24.06,0.18128,0.39956,0.39956
24.10,0.18215,0.40024,0.40024
24.15,0.18301,0.40092,0.40092
24.19,0.18388,0.40160,0.40160
24.23,0.18474,0.40228,0.40228
24.27,0.18561,0.40296,0.40296
24.31,0.18647,0.40364,0.40364
24.35,0.18734,0.40432,0.40432
24.39,0.18820,0.40500,0.40500
24.43,0.18907,0.40568,0.40568
24.47,0.18994,0.40636,0.40636
24.51,0.19080,0.40704,0.40704
24.55,0.19167,0.40772,0.40772
24.59,0.19253,0.40840,0.40840
24.64,0.19340,0.40908,0.40908
24.68,0.19426,0.40976,0.40976
24.72,0.19513,0.41044,0.41044
24.76,0.19599,0.41112,0.41112
24.80,0.19715,0.41180,0.41180
24.84,0.19838,0.41248,0.41248
24.88,0.19961,0.41316,0.41316
24.92,0.20084,0.41384,0.41384
24.96,0.20207,0.41452,0.41452
25.00,0.20330,0.41520,0.41520
25.04,0.20453,0.41588,0.41588
25.08,0.20575,0.41656,0.41656
25.12,0.20698,0.41724,0.41724
25.17,0.20821,0.41792,0.41792
25.21,0.20944,0.41860,0.41860
25.25,0.21067,0.41928,0.41928
25.29,0.21190,0.41996,0.41996
25.33,0.21313,0.42064,0.42064
25.37,0.21436,0.42132,0.42132
25.41,0.21559,0.42200,0.42200
25.45,0.21682,0.42268,0.42268
25.49,0.21805,0.42336,0.42336
25.53,0.21928,0.42404,0.42404
25.57,0.22050,0.42472,0.42472
25.61,0.22173,0.42540,0.42540
25.65,0.22296,0.42608,0.42608
25.70,0.22419,0.42676,0.42676
25.74,0.22542,0.42744,0.42744
25.78,0.22665,0.42812,0.42812
25.82,0.22788,0.42880,0.42880
25.86,0.22911,0.42948,0.42948
25.90,0.23034,0.43016,0.43016
25.94,0.23157,0.43084,0.43084
25.98,0.23280,0.43152,0.43152
26.02,0.23403,0.43220,0.43220
26.06,0.23525,0.43288,0.43288
26.10,0.23648,0.43356,0.43356
26.14,0.23771,0.43424,0.43424
26.19,0.23894,0.43492,0.43492
26.23,0.24017,0.43560,0.43560
26.27,0.24140,0.43628,0.43628
26.31,0.24263,0.43696,0.43696
26.35,0.24386,0.43764,0.43764
26.39,0.24509,0.43832,0.43832
26.43,0.24632,0.43900,0.43900
26.47,0.24755,0.43968,0.43968
26.51,0.24878,0.44036,0.44036
26.55,0.25000,0.44104,0.44104
26.59,0.25123,0.44172,0.44172
26.63,0.25246,0.44240,0.44240
26.67,0.25369,0.44308,0.44308
26.72,0.25492,0.44375,0.44375
26.76,0.25615,0.44443,0.44443
26.80,0.25738,0.44511,0.44511
26.84,0.25861,0.44579,0.44579
26.88,0.25984,0.44647,0.44647
26.92,0.26107,0.44715,0.44715
26.96,0.26230,0.44783,0.44783
27.00,0.26352,0.44851,0.44851
27.04,0.26475,0.44919,0.44919
27.08,0.26598,0.44987,0.44987
27.12,0.26721,0.45055,0.45055
27.16,0.26844,0.45123,0.45123
27.20,0.26967,0.45191,0.45191
27.25,0.27090,0.45259,0.45259
27.29,0.27213,0.45327,0.45327
27.33,0.27352,0.45395,0.45395
27.37,0.27495,0.45463,0.45463
27.41,0.27638,0.45531,0.45531
27.45,0.27781,0.45599,0.45599
27.49,0.27924,0.45667,0.45667
27.53,0.28067,0.45735,0.45735
27.57,0.28210,0.45803,0.45803
27.61,0.28353,0.45871,0.45871
27.65,0.28496,0.45939,0.45939
27.69,0.28640,0.46007,0.46007
27.73,0.28783,0.46075,0.46075
27.78,0.28926,0.46143,0.46143
27.82,0.29069,0.46211,0.46211
27.86,0.29212,0.46279,0.46279
27.90,0.29355,0.46347,0.46347
27.94,0.29498,0.46415,0.46415
27.98,0.29641,0.46483,0.46483
28.02,0.29784,0.46551,0.46551
28.06,0.29927,0.46619,0.46619
28.10,0.30070,0.46687,0.46687
28.14,0.30214,0.46755,0.46755
28.18,0.30357,0.46823,0.46823
28.22,0.30486,0.46891,0.46891
28.27,0.30610,0.46959,0.46959
28.31,0.30733,0.47027,0.47027
28.35,0.30856,0.47095,0.47095
28.39,0.30980,0.47163,0.47163
28.43,0.31145,0.47231,0.47231
28.47,0.31358,0.47299,0.47299
28.51,0.31571,0.47367,0.47367
28.55,0.31783,0.47435,0.47435
28.59,0.31996,0.47503,0.47503
28.63,0.32209,0.47571,0.47571
28.67,0.32422,0.47639,0.47639
28.71,0.32634,0.47707,0.47707
28.75,0.32847,0.47775,0.47775
28.80,0.33060,0.47843,0.47843
28.84,0.33273,0.47911,0.47911
28.88,0.33486,0.47979,0.47979
28.92,0.33698,0.48047,0.48047
28.96,0.33911,0.48115,0.48115
29.00,0.34124,0.48183,0.48183
29.04,0.34337,0.48251,0.48251
29.08,0.34549,0.48319,0.48319
29.12,0.34762,0.48387,0.48387
29.16,0.34975,0.48455,0.48455
29.20,0.35188,0.48523,0.48523
29.24,0.35400,0.48591,0.48591
29.28,0.35613,0.48659,0.48659
29.33,0.35826,0.48727,0.48727
29.37,0.36039,0.48795,0.48795
29.41,0.36251,0.48863,0.48863
29.45,0.36464,0.48931,0.48931
29.49,0.36677,0.48999,0.48999
29.53,0.36890,0.49066,0.49066
29.57,0.37102,0.49134,0.49134
29.61,0.37315,0.49202,0.49202
29.65,0.37528,0.49270,0.49270
29.69,0.37741,0.49338,0.49338
29.73,0.38424,0.49406,0.49406
29.77,0.38670,0.49474,0.49474
29.82,0.38917,0.49542,0.49542
29.86,0.39163,0.49610,0.49610
29.90,0.39409,0.49678,0.49678
29.94,0.39655,0.49746,0.49746
29.98,0.39901,0.49814,0.49814
30.02,0.40147,0.49882,0.49882
30.06,0.40393,0.49950,0.49950
30.10,0.40639,0.50018,0.50018
30.14,0.40885,0.50086,0.50086
30.18,0.41132,0.50154,0.50154
30.22,0.41378,0.50222,0.50222
30.26,0.41624,0.50290,0.50290
30.30,0.41870,0.50358,0.50358
30.35,0.42116,0.50426,0.50426
30.39,0.42362,0.50494,0.50494
30.43,0.42608,0.50562,0.50562
30.47,0.42854,0.50630,0.50630
30.51,0.43100,0.50698,0.50698
30.55,0.43347,0.50766,0.50766
30.59,0.43593,0.50834,0.50834
30.63,0.43839,0.50902,0.50902
30.67,0.44085,0.50970,0.50970
30.71,0.44331,0.51038,0.51038
30.75,0.44577,0.51106,0.51106
30.79,0.44823,0.51174,0.51174
30.83,0.45069,0.51242,0.51242
30.88,0.45316,0.51310,0.51310
30.92,0.45562,0.51378,0.51378
30.96,0.45808,0.51446,0.51446
31.00,0.46054,0.51514,0.51514
31.04,0.46300,0.51582,0.51582
31.08,0.46546,0.51650,0.51650
31.12,0.46792,0.51718,0.51718
31.16,0.47038,0.51786,0.51786
31.20,0.47291,0.51854,0.51854
31.24,0.47557,0.51922,0.51922
31.28,0.47823,0.51990,0.51990
31.32,0.48089,0.52058,0.52058
31.37,0.48354,0.52126,0.52126
31.41,0.48620,0.52194,0.52194
31.45,0.48886,0.52262,0.52262
31.49,0.49152,0.52330,0.52330
31.53,0.49418,0.52398,0.52398
31.57,0.49684,0.52466,0.52466
31.61,0.49950,0.52534,0.52534
31.65,0.50216,0.52602,0.52602
31.69,0.50482,0.52670,0.52670
31.73,0.50748,0.52738,0.52738
31.77,0.51013,0.52806,0.52806
31.81,0.51279,0.52874,0.52874
31.85,0.51545,0.52942,0.52942
31.90,0.51811,0.53010,0.53010
31.94,0.52077,0.53078,0.53078
31.98,0.52343,0.53146,0.53146
32.02,0.52609,0.53214,0.53214
32.06,0.52875,0.53282,0.53282
32.10,0.53141,0.53350,0.53350
32.14,0.53406,0.53418,0.53418
32.18,0.53672,0.53486,0.53486
32.22,0.53938,0.53554,0.53554
32.26,0.54204,0.53622,0.53622
32.30,0.54470,0.53690,0.53690
32.34,0.54736,0.53758,0.53758
32.38,0.55002,0.53825,0.53825
32.43,0.55268,0.53893,0.53893
32.47,0.55534,0.53961,0.53961
32.51,0.55800,0.54029,0.54029
32.55,0.56065,0.54097,0.54097
32.59,0.56331,0.54165,0.54165
32.63,0.56597,0.54233,0.54233
32.67,0.56863,0.54301,0.54301
32.71,0.57129,0.54369,0.54369
32.75,0.57395,0.54437,0.54437
32.79,0.57661,0.54505,0.54505
32.83,0.57927,0.54573,0.54573
32.87,0.58193,0.54641,0.54641
32.91,0.58458,0.54709,0.54709
32.96,0.58724,0.54777,0.54777
33.00,0.58990,0.54845,0.54845
33.04,0.59256,0.54913,0.54913
33.08,0.59522,0.54981,0.54981
33.12,0.59788,0.55049,0.55049
33.16,0.60054,0.55117,0.55117
33.20,0.60320,0.55185,0.55185
33.24,0.60586,0.55253,0.55253
33.28,0.60851,0.55321,0.55321
33.32,0.61117,0.55389,0.55389
33.36,0.61383,0.55457,0.55457
33.40,0.61649,0.55525,0.55525
33.45,0.61915,0.55593,0.55593
33.49,0.62181,0.55661,0.55661
33.53,0.62447,0.55729,0.55729
33.57,0.62715,0.55797,0.55797
33.61,0.62992,0.55865,0.55865
33.65,0.63270,0.55933,0.55933
33.69,0.63548,0.56001,0.56001
33.73,0.63826,0.56069,0.56069
33.77,0.64104,0.56137,0.56137
33.81,0.64382,0.56205,0.56205
33.85,0.64660,0.56273,0.56273
33.89,0.64938,0.56341,0.56341
33.93,0.65216,0.56409,0.56409
33.98,0.65494,0.56477,0.56477
34.02,0.65772,0.56545,0.56545
34.06,0.66050,0.56613,0.56613
34.10,0.66328,0.56681,0.56681
34.14,0.66606,0.56749,0.56749
34.18,0.66883,0.56817,0.56817
34.22,0.67161,0.56885,0.56885
34.26,0.67439,0.56953,0.56953
34.30,0.67717,0.57021,0.57021
34.34,0.67995,0.57089,0.57089
34.38,0.68273,0.57157,0.57157
34.42,0.68551,0.57225,0.57225
34.46,0.68829,0.57293,0.57293
34.51,0.69107,0.57361,0.57361
34.55,0.69385,0.57429,0.57429
34.59,0.69663,0.57497,0.57497
34.63,0.69941,0.57565,0.57565
34.67,0.70219,0.57633,0.57633
34.71,0.70497,0.57701,0.57701
34.75,0.70775,0.57769,0.57769
34.79,0.71052,0.57837,0.57837
34.83,0.71330,0.57906,0.57906
34.87,0.71608,0.57974,0.57974
34.91,0.71886,0.58042,0.58042
34.95,0.72164,0.58110,0.58110
35.00,0.72442,0.58178,0.58178
35.04,0.72720,0.58246,0.58246
35.08,0.72998,0.58314,0.58314
35.12,0.73276,0.58382,0.58382
35.16,0.73567,0.58450,0.58450
35.20,0.73860,0.58518,0.58518
35.24,0.74154,0.58586,0.58586
35.28,0.74448,0.58654,0.58654
35.32,0.74742,0.58722,0.58722
35.36,0.75036,0.58790,0.58790
35.40,0.75329,0.58858,0.58858
35.44,0.75623,0.58926,0.58926
35.48,0.75917,0.58994,0.58994
35.53,0.76211,0.59062,0.59062
35.57,0.76505,0.59130,0.59130
35.61,0.76798,0.59198,0.59198
35.65,0.77092,0.59266,0.59266
35.69,0.77386,0.59334,0.59334
35.73,0.77680,0.59402,0.59402
35.77,0.77973,0.59470,0.59470
35.81,0.78267,0.59538,0.59538
35.85,0.78561,0.59606,0.59606
35.89,0.78855,0.59674,0.59674
35.93,0.79149,0.59742,0.59742
35.97,0.79442,0.59810,0.59810
36.01,0.79736,0.59878,0.59878
36.06,0.80030,0.59946,0.59946
36.10,0.80324,0.60014,0.60014
36.14,0.80618,0.60082,0.60082
36.18,0.80911,0.60150,0.60150
36.22,0.81205,0.60218,0.60218
36.26,0.81499,0.60286,0.60286
36.30,0.81793,0.60354,0.60354
36.34,0.82086,0.60422,0.60422
36.38,0.82380,0.60490,0.60490
36.42,0.82674,0.60558,0.60558
36.46,0.82968,0.60626,0.60626
36.50,0.83262,0.60694,0.60694
36.54,0.83555,0.60762,0.60762
36.59,0.83849,0.60830,0.60830
36.63,0.84143,0.60898,0.60898
36.67,0.84437,0.60966,0.60966
36.71,0.84731,0.61034,0.61034
36.75,0.85024,0.61102,0.61102
36.79,0.85318,0.61170,0.61170
36.83,0.85612,0.61238,0.61238
36.87,0.85906,0.61306,0.61306
36.91,0.86199,0.61374,0.61374
36.95,0.86493,0.61442,0.61442
36.99,0.86787,0.61510,0.61510
37.03,0.87081,0.61578,0.61578
37.08,0.87383,0.61646,0.61646
37.12,0.87690,0.61714,0.61714
37.16,0.87997,0.61782,0.61782
37.20,0.88303,0.61850,0.61850
37.24,0.88610,0.61918,0.61918
37.28,0.88916,0.61986,0.61986
37.32,0.89223,0.62054,0.62054
37.36,0.89529,0.62122,0.62122
37.40,0.89836,0.62190,0.62190
37.44,0.90142,0.62258,0.62258
37.48,0.90449,0.62326,0.62326
37.52,0.90755,0.62394,0.62394
37.56,0.91062,0.62462,0.62462
37.61,0.91369,0.62530,0.62530
37.65,0.91675,0.62598,0.62598
37.69,0.91982,0.62666,0.62666
37.73,0.92288,0.62734,0.62734
37.77,0.92595,0.62802,0.62802
37.81,0.92901,0.62870,0.62870
37.85,0.93208,0.62938,0.62938
37.89,0.93514,0.63006,0.63006
37.93,0.93821,0.63074,0.63074
37.97,0.94127,0.63142,0.63142
38.01,0.94434,0.63210,0.63210
38.05,0.94740,0.63278,0.63278
38.09,0.95047,0.63346,0.63346
38.14,0.95354,0.63414,0.63414
38.18,0.95660,0.63482,0.63482
38.22,0.95967,0.63550,0.63550
38.26,0.96273,0.63618,0.63618
38.30,0.96580,0.63686,0.63686
38.34,0.96886,0.63754,0.63754
38.38,0.97193,0.63823,0.63823
38.42,0.97499,0.63891,0.63891
38.46,0.97806,0.63959,0.63959
38.50,0.98112,0.64027,0.64027
38.54,0.98419,0.64095,0.64095
38.58,0.98726,0.64163,0.64163
38.63,0.99032,0.64231,0.64231
38.67,0.99339,0.64299,0.64299
38.71,0.99645,0.64367,0.64367
38.75,0.99952,0.64435,0.64435
38.79,1.0026,0.64503,0.64503
38.83,1.0056,0.64571,0.64571
38.87,1.0087,0.64639,0.64639
38.91,1.0118,0.64707,0.64707
38.95,1.0148,0.64775,0.64775
38.99,1.0179,0.64843,0.64843
39.03,1.0210,0.64911,0.64911
39.07,1.0240,0.64979,0.64979
39.11,1.0271,0.65047,0.65047
39.16,1.0302,0.65115,0.65115
39.20,1.0332,0.65183,0.65183
39.24,1.0363,0.65251,0.65251
39.28,1.0394,0.65319,0.65319
39.32,1.0424,0.65387,0.65387
39.36,1.0455,0.65455,0.65455
39.40,1.0486,0.65523,0.65523
39.44,1.0516,0.65591,0.65591
39.48,1.0547,0.65659,0.65659
39.52,1.0578,0.65727,0.65727
39.56,1.0608,0.65795,0.65795
39.60,1.0639,0.65863,0.65863
39.64,1.0670,0.65931,0.65931
39.69,1.0700,0.65999,0.65999
39.73,1.0731,0.66067,0.66067
39.77,1.0762,0.66135,0.66135
39.81,1.0792,0.66203,0.66203
39.85,1.0823,0.66271,0.66271
39.89,1.0853,0.66339,0.66339
39.93,1.0884,0.66407,0.66407
39.97,1.0915,0.66475,0.66475
40.01,1.0945,0.66543,0.66543
40.05,1.0976,0.66611,0.66611
40.09,1.1005,0.66679,0.66679
40.13,1.1035,0.66747,0.66747
40.17,1.1064,0.66815,0.66815
40.22,1.1094,0.66883,0.66883
40.26,1.1123,0.66951,0.66951
40.30,1.1152,0.67019,0.67019
40.34,1.1182,0.67087,0.67087
40.38,1.1211,0.67155,0.67155
40.42,1.1241,0.67223,0.67223
40.46,1.1270,0.67291,0.67291
40.50,1.1300,0.67359,0.67359
40.54,1.1329,0.67427,0.67427
40.58,1.1359,0.67495,0.67495
40.62,1.1388,0.67563,0.67563
40.66,1.1417,0.67631,0.67631
40.71,1.1447,0.67699,0.67699
40.75,1.1476,0.67767,0.67767
40.79,1.1506,0.67835,0.67835
40.83,1.1535,0.67903,0.67903
40.87,1.1565,0.67971,0.67971
40.91,1.1594,0.68039,0.68039
40.95,1.1624,0.68107,0.68107
40.99,1.1653,0.68175,0.68175
41.03,1.1682,0.68243,0.68243
41.07,1.1712,0.68311,0.68311
41.11,1.1741,0.68379,0.68379
41.15,1.1771,0.68447,0.68447
41.19,1.1800,0.68515,0.68515
41.24,1.1830,0.68583,0.68583
41.28,1.1859,0.68651,0.68651
41.32,1.1889,0.68719,0.68719
41.36,1.1918,0.68787,0.68787
41.40,1.1947,0.68855,0.68855
41.44,1.1977,0.68923,0.68923
41.48,1.2006,0.68991,0.68991
41.52,1.2036,0.69059,0.69059
41.56,1.2065,0.69127,0.69127
41.60,1.2095,0.69195,0.69195
41.64,1.2124,0.69263,0.69263
41.68,1.2154,0.69331,0.69331
41.72,1.2183,0.69399,0.69399
41.77,1.2212,0.69467,0.69467
41.81,1.2242,0.69535,0.69535
41.85,1.2271,0.69603,0.69603
41.89,1.2301,0.69671,0.69671
41.93,1.2330,0.69739,0.69739
41.97,1.2360,0.69808,0.69808
42.01,1.2389,0.69876,0.69876
42.05,1.2419,0.69944,0.69944
42.09,1.2448,0.70012,0.70012
42.13,1.2477,0.70080,0.70080
42.17,1.2507,0.70148,0.70148
42.21,1.2536,0.70216,0.70216
42.26,1.2566,0.70284,0.70284
42.30,1.2595,0.70352,0.70352
42.34,1.2625,0.70420,0.70420
42.38,1.2654,0.70488,0.70488
42.42,1.2684,0.70556,0.70556
42.46,1.2713,0.70624,0.70624
42.50,1.2741,0.70692,0.70692
42.54,1.2768,0.70760,0.70760
42.58,1.2794,0.70828,0.70828
42.62,1.2820,0.70896,0.70896
42.66,1.2847,0.70964,0.70964
42.70,1.2873,0.71032,0.71032
42.74,1.2900,0.71100,0.71100
42.79,1.2926,0.71168,0.71168
42.83,1.2952,0.71236,0.71236
42.87,1.2979,0.71304,0.71304
42.91,1.3005,0.71372,0.71372
42.95,1.3031,0.71440,0.71440
42.99,1.3058,0.71508,0.71508
43.03,1.3084,0.71576,0.71576
43.07,1.3111,0.71644,0.71644
43.11,1.3137,0.71712,0.71712
43.15,1.3163,0.71780,0.71780
43.19,1.3190,0.71848,0.71848
43.23,1.3216,0.71916,0.71916
43.27,1.3242,0.71984,0.71984
43.32,1.3269,0.72052,0.72052
43.36,1.3295,0.72120,0.72120
43.40,1.3318,0.72188,0.72188
43.44,1.3340,0.72256,0.72256
43.48,1.3363,0.72324,0.72324
43.52,1.3385,0.72392,0.72392
43.56,1.3408,0.72460,0.72460
43.60,1.3430,0.72528,0.72528
43.64,1.3453,0.72596,0.72596
43.68,1.3475,0.72664,0.72664
43.72,1.3498,0.72732,0.72732
43.76,1.3521,0.72800,0.72800
43.80,1.3543,0.72868,0.72868
43.85,1.3566,0.72936,0.72936
43.89,1.3588,0.73004,0.73004
43.93,1.3611,0.73072,0.73072
43.97,1.3633,0.73140,0.73140
44.01,1.3656,0.73208,0.73208
44.05,1.3679,0.73276,0.73276
44.09,1.3701,0.73344,0.73344
44.13,1.3724,0.73412,0.73412
44.17,1.3746,0.73480,0.73480
44.21,1.3769,0.73548,0.73548
44.25,1.3791,0.73616,0.73616
44.29,1.3814,0.73684,0.73684
44.34,1.3837,0.73752,0.73752
44.38,1.3859,0.73820,0.73820
44.42,1.3882,0.73888,0.73888
44.46,1.3904,0.73956,0.73956
44.50,1.3927,0.74024,0.74024
44.54,1.3949,0.74092,0.74092
44.58,1.3972,0.74160,0.74160
44.62,1.3995,0.74228,0.74228
44.66,1.4017,0.74296,0.74296
44.70,1.4040,0.74364,0.74364
44.74,1.4062,0.74432,0.74432
44.78,1.4085,0.74500,0.74500
44.82,1.4107,0.74568,0.74568
44.87,1.4130,0.74636,0.74636
44.91,1.4153,0.74704,0.74704
44.95,1.4175,0.74772,0.74772
44.99,1.4198,0.74840,0.74840
45.03,1.4220,0.74908,0.74908
45.07,1.4243,0.74976,0.74976
45.11,1.4265,0.75044,0.75044
45.15,1.4288,0.75112,0.75112
45.19,1.4310,0.75180,0.75180
45.23,1.4333,0.75248,0.75248
45.27,1.4356,0.75316,0.75316
45.31,1.4378,0.75384,0.75384
45.35,1.4401,0.75452,0.75452
45.40,1.4423,0.75520,0.75520
45.44,1.4446,0.75588,0.75588
45.48,1.4468,0.75656,0.75656
45.52,1.4491,0.75724,0.75724
45.56,1.4514,0.75792,0.75792
45.60,1.4536,0.75860,0.75860
45.64,1.4559,0.75928,0.75928
45.68,1.4581,0.75996,0.75996
45.72,1.4604,0.76064,0.76064
45.76,1.4626,0.76132,0.76132
45.80,1.4649,0.76200,0.76200
45.84,1.4672,0.76268,0.76268
45.89,1.4694,0.76336,0.76336
45.93,1.4717,0.76404,0.76404
45.97,1.4739,0.76472,0.76472
46.01,1.4759,0.76540,0.76540
46.05,1.4766,0.76608,0.76608
46.09,1.4773,0.76676,0.76676
46.13,1.4780,0.76744,0.76744
46.17,1.4787,0.76812,0.76812
46.21,1.4794,0.76880,0.76880
46.25,1.4801,0.76948,0.76948
46.29,1.4808,0.77016,0.77016
46.33,1.4815,0.77085,0.77085
46.37,1.4822,0.77153,0.77153
46.42,1.4829,0.77221,0.77221
46.46,1.4836,0.77289,0.77289
46.50,1.4843,0.77357,0.77357
46.54,1.4850,0.77425,0.77425
46.58,1.4849,0.77493,0.77493
46.62,1.4817,0.77561,0.77561
46.66,1.4785,0.77629,0.77629
46.70,1.4754,0.77697,0.77697
46.74,1.4722,0.77765,0.77765
46.78,1.4690,0.77833,0.77833
46.82,1.4658,0.77901,0.77901
46.86,1.4579,0.77969,0.77969
46.90,1.4403,0.78037,0.78037
46.95,1.4218,0.78105,0.78105
46.99,1.1517,0.78173,0.78173
47.03,0.35626,0.78241,0.78241
47.07,0.35802,0.78309,0.78309
47.11,0.36033,0.78377,0.78377
47.15,0.36264,0.78445,0.78445
47.19,0.36495,0.78513,0.78513
47.23,0.36726,0.78581,0.78581
47.27,0.36957,0.78649,0.78649
47.31,0.37188,0.78717,0.78717
47.35,0.37419,0.78785,0.78785
47.39,0.37651,0.78853,0.78853
47.43,0.37882,0.78921,0.78921
47.48,0.38113,0.78989,0.78989
47.52,0.38344,0.79057,0.79057
47.56,0.38575,0.79125,0.79125
47.60,0.38806,0.79193,0.79193
47.64,0.39037,0.79261,0.79261
47.68,0.39268,0.79329,0.79329
47.72,0.39499,0.79397,0.79397
47.76,0.39730,0.79465,0.79465
47.80,0.39962,0.79533,0.79533
47.84,0.40193,0.79601,0.79601
47.88,0.40424,0.79669,0.79669
47.92,0.40655,0.79737,0.79737
47.97,0.40886,0.79805,0.79805
48.01,0.41117,0.79873,0.79873
48.05,0.41348,0.79941,0.79941
48.09,0.41579,0.80009,0.80009
48.13,0.41810,0.80077,0.80077
48.17,0.42041,0.80145,0.80145
48.21,0.42273,0.80213,0.80213
48.25,0.42504,0.80281,0.80281
48.29,0.42735,0.80349,0.80349
48.33,0.42966,0.80417,0.80417
48.37,0.43197,0.80485,0.80485
48.41,0.43428,0.80553,0.80553
48.45,0.43659,0.80621,0.80621
48.50,0.43890,0.80689,0.80689
48.54,0.44121,0.80757,0.80757
48.58,0.44352,0.80825,0.80825
48.62,0.44584,0.80893,0.80893
48.66,0.44815,0.80961,0.80961
48.70,0.45046,0.81029,0.81029
48.74,0.45277,0.81097,0.81097
48.78,0.45508,0.81165,0.81165
48.82,0.45739,0.81233,0.81233
48.86,0.45970,0.81301,0.81301
48.90,0.46088,0.81369,0.81369
48.94,0.46105,0.81437,0.81437
48.98,0.46144,0.81505,0.81505
49.03,0.46372,0.81573,0.81573
49.07,0.46601,0.81641,0.81641
49.11,0.46829,0.81709,0.81709
49.15,0.47058,0.81777,0.81777
49.19,0.47286,0.81845,0.81845
49.23,0.47514,0.81913,0.81913
49.27,0.47743,0.81981,0.81981
49.31,0.47971,0.82049,0.82049
49.35,0.48199,0.82117,0.82117
49.39,0.48428,0.82185,0.82185
49.43,0.48656,0.82253,0.82253
49.47,0.48884,0.82321,0.82321
49.52,0.49113,0.82389,0.82389
49.56,0.49341,0.82457,0.82457
49.60,0.49569,0.82525,0.82525
49.64,0.49798,0.82593,0.82593
49.68,0.50026,0.82661,0.82661
49.72,0.50255,0.82729,0.82729
49.76,0.50483,0.82797,0.82797
49.80,0.50711,0.82865,0.82865
49.84,0.50940,0.82933,0.82933
49.88,0.51168,0.83001,0.83001
49.92,0.51396,0.83069,0.83069
49.96,0.51625,0.83137,0.83137
50.00,0.51853,0.83205,0.83205
50.05,0.52081,0.83273,0.83273
50.09,0.52248,0.83341,0.83341
50.13,0.52416,0.83409,0.83409
50.17,0.52583,0.83477,0.83477
50.21,0.52751,0.83545,0.83545
50.25,0.52918,0.83613,0.83613
50.29,0.53086,0.83681,0.83681
50.33,0.53253,0.83749,0.83749
50.37,0.53420,0.83817,0.83817
50.41,0.53588,0.83885,0.83885
50.45,0.53755,0.83953,0.83953
50.49,0.53923,0.84021,0.84021
50.53,0.54090,0.84089,0.84089
50.58,0.54258,0.84157,0.84157
50.62,0.54425,0.84225,0.84225
50.66,0.54593,0.84293,0.84293
50.70,0.54760,0.84361,0.84361
50.74,0.54928,0.84429,0.84429
50.78,0.55095,0.84497,0.84497
50.82,0.55262,0.84565,0.84565
50.86,0.55430,0.84633,0.84633
50.90,0.55597,0.84701,0.84701
50.94,0.55754,0.84769,0.84769
50.98,0.55875,0.84837,0.84837
51.02,0.55995,0.84905,0.84905
51.06,0.56115,0.84973,0.84973
51.11,0.56236,0.85041,0.85041
51.15,0.56356,0.85109,0.85109
51.19,0.56477,0.85177,0.85177
51.23,0.56597,0.85245,0.85245
51.27,0.56717,0.85313,0.85313
51.31,0.56838,0.85381,0.85381
51.35,0.57027,0.85449,0.85449
51.39,0.57235,0.85517,0.85517
51.43,0.57442,0.85585,0.85585
51.47,0.57650,0.85653,0.85653
51.51,0.57858,0.85721,0.85721
51.55,0.58066,0.85789,0.85789
51.60,0.58274,0.85857,0.85857
51.64,0.58481,0.85925,0.85925
51.68,0.58689,0.85993,0.85993
51.72,0.58897,0.86061,0.86061
51.76,0.59105,0.86129,0.86129
51.80,0.59312,0.86197,0.86197
51.84,0.59520,0.86265,0.86265
51.88,0.59728,0.86333,0.86333
51.92,0.59936,0.86401,0.86401
51.96,0.60143,0.86469,0.86469
52.00,0.60351,0.86537,0.86537
52.04,0.60559,0.86605,0.86605
52.08,0.60767,0.86673,0.86673
52.13,0.60974,0.86741,0.86741
52.17,0.61182,0.86809,0.86809
52.21,0.61390,0.86877,0.86877
52.25,0.61598,0.86945,0.86945
52.29,0.61805,0.87013,0.87013
52.33,0.62013,0.87081,0.87081
52.37,0.62227,0.87149,0.87149
52.41,0.62442,0.87217,0.87217
52.45,0.62658,0.87285,0.87285
52.49,0.62873,0.87353,0.87353
52.53,0.63089,0.87421,0.87421
52.57,0.63305,0.87489,0.87489
52.61,0.63520,0.87557,0.87557
52.66,0.63736,0.87625,0.87625
52.70,0.63951,0.87693,0.87693
52.74,0.64167,0.87761,0.87761
52.78,0.64383,0.87829,0.87829
52.82,0.64598,0.87897,0.87897
52.86,0.64814,0.87965,0.87965
52.90,0.65029,0.88033,0.88033
52.94,0.65245,0.88101,0.88101
52.98,0.65460,0.88169,0.88169
53.02,0.65676,0.88237,0.88237
53.06,0.65892,0.88305,0.88305
53.10,0.66107,0.88373,0.88373
53.15,0.66323,0.88441,0.88441
53.19,0.66538,0.88509,0.88509
53.23,0.66663,0.88577,0.88577
53.27,0.66780,0.88645,0.88645
53.31,0.66897,0.88713,0.88713
53.35,0.67013,0.88781,0.88781
53.39,0.67130,0.88849,0.88849
53.43,0.67246,0.88918,0.88918
53.47,0.67363,0.88986,0.88986
53.51,0.67480,0.89054,0.89054
53.55,0.67596,0.89122,0.89122
53.59,0.67713,0.89190,0.89190
53.63,0.67829,0.89258,0.89258
53.68,0.67946,0.89326,0.89326
53.72,0.68063,0.89394,0.89394
53.76,0.68179,0.89462,0.89462
53.80,0.68296,0.89530,0.89530
53.84,0.68412,0.89598,0.89598
53.88,0.68529,0.89666,0.89666
53.92,0.68646,0.89734,0.89734
53.96,0.68762,0.89802,0.89802
54.00,0.68879,0.89870,0.89870
54.04,0.68995,0.89938,0.89938
54.08,0.69112,0.90006,0.90006
54.12,0.69174,0.90074,0.90074
54.16,0.69210,0.90142,0.90142
54.21,0.69246,0.90210,0.90210
54.25,0.69282,0.90278,0.90278
54.29,0.69318,0.90346,0.90346
54.33,0.69354,0.90414,0.90414
54.37,0.69389,0.90482,0.90482
54.41,0.69425,0.90550,0.90550
54.45,0.69461,0.90618,0.90618
54.49,0.69497,0.90686,0.90686
54.53,0.69533,0.90754,0.90754
54.57,0.69569,0.90822,0.90822
54.61,0.69604,0.90890,0.90890
54.65,0.69640,0.90958,0.90958
54.70,0.69676,0.91026,0.91026
54.74,0.69712,0.91094,0.91094
54.78,0.69748,0.91162,0.91162
54.82,0.69784,0.91230,0.91230
54.86,0.69819,0.91298,0.91298
54.90,0.69847,0.91366,0.91366
54.94,0.69806,0.91434,0.91434
54.98,0.69765,0.91502,0.91502
55.02,0.69724,0.91570,0.91570
55.06,0.69683,0.91638,0.91638
55.10,0.69642,0.91706,0.91706
55.14,0.69601,0.91774,0.91774
55.18,0.69560,0.91842,0.91842
55.23,0.69519,0.91910,0.91910
55.27,0.69478,0.91978,0.91978
55.31,0.69437,0.92046,0.92046
55.35,0.69353,0.92114,0.92114
55.39,0.69218,0.92182,0.92182
55.43,0.69083,0.92250,0.92250
55.47,0.68949,0.92318,0.92318
55.51,0.68814,0.92386,0.92386
55.55,0.68679,0.92454,0.92454
55.59,0.68544,0.92522,0.92522
55.63,0.68409,0.92590,0.92590
55.67,0.68274,0.92658,0.92658
55.71,0.68140,0.92726,0.92726
55.76,0.68005,0.92794,0.92794
55.80,0.67870,0.92862,0.92862
55.84,0.67735,0.92930,0.92930
55.88,0.67600,0.92998,0.92998
55.92,0.67465,0.93066,0.93066
55.96,0.67330,0.93134,0.93134
56.00,0.67126,0.93202,0.93202
56.04,0.66359,0.93270,0.93270
56.08,0.65977,0.93338,0.93338
56.12,0.65595,0.93406,0.93406
56.16,0.65213,0.93474,0.93474
56.20,0.64830,0.93542,0.93542
56.24,0.64448,0.93610,0.93610
56.29,0.64066,0.93678,0.93678
56.33,0.63684,0.93746,0.93746
56.37,0.63301,0.93814,0.93814
56.41,0.62919,0.93882,0.93882
56.45,0.62537,0.93950,0.93950
56.49,0.62154,0.94018,0.94018
56.53,0.61772,0.94086,0.94086
56.57,0.61361,0.94154,0.94154
56.61,0.60673,0.94222,0.94222
56.65,0.59986,0.94290,0.94290
56.69,0.59298,0.94358,0.94358
56.73,0.58610,0.94426,0.94426
56.78,0.57922,0.94494,0.94494
56.82,0.57234,0.94562,0.94562
56.86,0.56546,0.94630,0.94630
56.90,0.55263,0.94698,0.94698
56.94,0.53865,0.94766,0.94766
56.98,0.52102,0.94834,0.94834
57.02,0.14592,0.94902,0.94902
57.06,0.062282,0.94970,0.94970
57.10,0.053090,0.95038,0.95038
57.14,0.050715,0.95106,0.95106
57.18,0.050900,0.95174,0.95174
57.22,0.051086,0.95242,0.95242
57.26,0.051271,0.95310,0.95310
57.31,0.051457,0.95378,0.95378
57.35,0.051642,0.95446,0.95446
57.39,0.051828,0.95514,0.95514
57.43,0.052013,0.95582,0.95582
57.47,0.052198,0.95650,0.95650
57.51,0.052384,0.95718,0.95718
57.55,0.052569,0.95786,0.95786
57.59,0.052755,0.95854,0.95854
57.63,0.052940,0.95922,0.95922
57.67,0.053126,0.95990,0.95990
57.71,0.053311,0.96058,0.96058
57.75,0.053496,0.96126,0.96126
57.79,0.053682,0.96194,0.96194
57.84,0.053867,0.96262,0.96262
57.88,0.054053,0.96330,0.96330
57.92,0.054238,0.96398,0.96398
57.96,0.054424,0.96466,0.96466
58.00,0.054609,0.96534,0.96534
58.04,0.054795,0.96602,0.96602
58.08,0.054980,0.96670,0.96670
58.12,0.055165,0.96738,0.96738
58.16,0.055351,0.96806,0.96806
58.20,0.055536,0.96874,0.96874
58.24,0.055722,0.96942,0.96942
58.28,0.055907,0.97010,0.97010
58.33,0.056093,0.97078,0.97078
58.37,0.056278,0.97146,0.97146
58.41,0.056463,0.97214,0.97214
58.45,0.056649,0.97282,0.97282
58.49,0.056834,0.97351,0.97351
58.53,0.057020,0.97419,0.97419
58.57,0.057205,0.97487,0.97487
58.61,0.057391,0.97555,0.97555
58.65,0.057576,0.97623,0.97623
58.69,0.057762,0.97691,0.97691
58.73,0.057947,0.97759,0.97759
58.77,0.058132,0.97827,0.97827
58.81,0.058318,0.97895,0.97895
58.86,0.058503,0.97963,0.97963
58.90,0.058689,0.98031,0.98031
58.94,0.058874,0.98099,0.98099
58.98,0.059060,0.98167,0.98167
59.02,0.059245,0.98235,0.98235
59.06,0.059430,0.98303,0.98303
59.10,0.059616,0.98371,0.98371
59.14,0.059801,0.98439,0.98439
59.18,0.059987,0.98507,0.98507
59.22,0.060172,0.98575,0.98575
59.26,0.060358,0.98643,0.98643
59.30,0.060543,0.98711,0.98711
59.34,0.060729,0.98779,0.98779
59.39,0.060914,0.98847,0.98847
59.43,0.061099,0.98915,0.98915
59.47,0.061285,0.98983,0.98983
59.51,0.061470,0.99051,0.99051
59.55,0.061656,0.99119,0.99119
59.59,0.061841,0.99187,0.99187
59.63,0.062027,0.99255,0.99255
59.67,0.062212,0.99323,0.99323
59.71,0.062397,0.99391,0.99391
59.75,0.062583,0.99459,0.99459
59.79,0.062768,0.99527,0.99527
59.83,0.062954,0.99595,0.99595
59.87,0.063139,0.99663,0.99663
59.92,0.063325,0.99731,0.99731
59.96,0.063510,0.99799,0.99799
60.00,0.063696,0.99840,0.99840
60.04,0.063881,0.99859,0.99859
60.08,0.064066,0.99879,0.99879
60.12,0.064252,0.99898,0.99898
60.16,0.064437,0.99918,0.99918
60.20,0.064623,0.99937,0.99937
60.24,0.064808,0.99957,0.99957
60.28,0.064994,0.99976,0.99976
60.32,0.065179,0.99996,0.99996
60.36,0.065364,1.0002,1.0002
60.41,0.065550,1.0003,1.0003
60.45,0.065735,1.0004,1.0004
60.49,0.065921,1.0003,1.0003
60.53,0.076089,1.0002,1.0002
60.56,0.076023,1.0002,1.0002